#File Dati SpectraSuite
#++++++++++++++++++++++++++++++++++++
#Data: Tue Dec 05 16:58:01 CET 2017
#Utente: GRUPPO 01
#Spettro Scuro Presente: No
#Spettro di Riferimento Presente: No
#Numero di Componenti Spettri Campionati: 1
#Spettrometri: USB2G34644
#Tempo di integrazione (usec): 300000 (USB2G34644)
#Media Spettri: 1 (USB2G34644)
#Appiattimento Boxcar: 0 (USB2G34644)
#Correggi Oscurit Elettronica: No (USB2G34644)
#Strobo/Lampada Abilitato: No (USB2G34644)
#Correct for Detector Non-linearity: No (USB2G34644)
#Correggi Stray Light: No (USB2G34644)
#Numero di Pixel nello Spettro Elaborato: 651
#>>>>>Comincia Dati dello Spettro Elaborati<<<<<
350.00	146.11
351.00	155.07
352.00	163.33
353.00	146.35
354.00	154.27
355.00	145.81
356.00	146.88
357.00	154.84
358.00	149.45
359.00	150.94
360.00	151.95
361.00	150.49
362.00	151.43
363.00	150.44
364.00	149.75
365.00	154.20
366.00	156.36
367.00	150.51
368.00	151.99
369.00	152.75
370.00	164.21
371.00	154.94
372.00	149.13
373.00	150.97
374.00	154.17
375.00	162.66
376.00	153.64
377.00	161.89
378.00	160.67
379.00	193.78
380.00	169.83
381.00	170.34
382.00	174.41
383.00	177.91
384.00	169.18
385.00	160.31
386.00	160.68
387.00	164.50
388.00	156.65
389.00	161.90
390.00	165.43
391.00	160.36
392.00	160.09
393.00	163.16
394.00	150.31
395.00	153.77
396.00	155.46
397.00	161.75
398.00	162.93
399.00	165.02
400.00	174.24
401.00	173.97
402.00	184.67
403.00	260.24
404.00	434.89
405.00	534.51
406.00	652.08
407.00	592.62
408.00	497.95
409.00	611.44
410.00	594.23
411.00	625.57
412.00	665.39
413.00	952.96
414.00	507.01
415.00	277.62
416.00	224.45
417.00	206.03
418.00	197.29
419.00	180.95
420.00	178.01
421.00	173.97
422.00	168.05
423.00	163.64
424.00	167.97
425.00	167.76
426.00	162.47
427.00	171.74
428.00	168.46
429.00	169.22
430.00	167.04
431.00	164.69
432.00	164.22
433.00	172.04
434.00	165.46
435.00	179.24
436.00	170.65
437.00	160.81
438.00	171.66
439.00	167.34
440.00	169.91
441.00	170.21
442.00	174.88
443.00	177.91
444.00	184.30
445.00	170.87
446.00	171.44
447.00	192.89
448.00	203.13
449.00	221.33
450.00	215.35
451.00	187.88
452.00	189.87
453.00	212.53
454.00	257.42
455.00	255.85
456.00	220.55
457.00	189.92
458.00	179.98
459.00	173.03
460.00	175.11
461.00	173.99
462.00	181.08
463.00	179.85
464.00	169.59
465.00	170.84
466.00	175.14
467.00	174.72
468.00	177.54
469.00	175.57
470.00	168.63
471.00	175.10
472.00	177.99
473.00	171.81
474.00	178.46
475.00	174.04
476.00	189.79
477.00	190.00
478.00	193.16
479.00	186.06
480.00	195.66
481.00	195.57
482.00	207.73
483.00	223.69
484.00	252.78
485.00	271.72
486.00	304.49
487.00	322.54
488.00	295.69
489.00	325.62
490.00	394.69
491.00	476.08
492.00	516.67
493.00	526.76
494.00	506.05
495.00	395.42
496.00	299.94
497.00	286.86
498.00	297.39
499.00	269.70
500.00	281.71
501.00	296.05
502.00	372.23
503.00	578.71
504.00	472.71
505.00	363.21
506.00	417.23
507.00	555.85
508.00	677.40
509.00	786.26
510.00	870.33
511.00	1014.00
512.00	1285.53
513.00	1591.55
514.00	1893.99
515.00	2310.79
516.00	3296.18
517.00	3961.08
518.00	4092.94
519.00	4095.05
520.00	4095.00
521.00	4095.00
522.00	4095.00
523.00	4095.00
524.00	4095.00
525.00	4095.00
526.00	4095.00
527.00	4095.00
528.00	4095.00
529.00	4095.00
530.00	4095.00
531.00	4095.00
532.00	4095.00
533.00	4095.00
534.00	4095.00
535.00	4095.00
536.00	4095.00
537.00	4095.00
538.00	4095.00
539.00	4095.00
540.00	4095.00
541.00	4095.00
542.00	4095.00
543.00	4095.00
544.00	4095.00
545.00	4095.00
546.00	4095.00
547.00	4095.00
548.00	4095.00
549.00	4095.00
550.00	4095.00
551.00	4095.00
552.00	4095.00
553.00	4095.00
554.00	4095.00
555.00	4095.00
556.00	4095.00
557.00	4095.00
558.00	4095.00
559.00	4095.00
560.00	4095.00
561.00	4094.91
562.00	4098.81
563.00	3989.29
564.00	2489.87
565.00	1937.98
566.00	1506.58
567.00	1136.52
568.00	887.55
569.00	722.06
570.00	597.25
571.00	516.62
572.00	458.95
573.00	420.24
574.00	363.37
575.00	335.72
576.00	305.79
577.00	283.78
578.00	268.23
579.00	258.17
580.00	244.37
581.00	242.14
582.00	231.37
583.00	225.27
584.00	219.67
585.00	226.92
586.00	221.52
587.00	212.94
588.00	215.29
589.00	215.12
590.00	207.65
591.00	203.00
592.00	198.24
593.00	200.04
594.00	199.00
595.00	195.68
596.00	201.65
597.00	202.10
598.00	199.83
599.00	204.92
600.00	198.10
601.00	193.34
602.00	196.79
603.00	193.69
604.00	186.68
605.00	192.97
606.00	180.49
607.00	193.06
608.00	207.08
609.00	194.95
610.00	196.74
611.00	188.94
612.00	187.64
613.00	189.01
614.00	187.11
615.00	194.92
616.00	193.27
617.00	197.24
618.00	200.69
619.00	199.24
620.00	206.24
621.00	208.11
622.00	198.47
623.00	203.36
624.00	212.19
625.00	218.87
626.00	216.87
627.00	227.08
628.00	255.12
629.00	260.24
630.00	284.71
631.00	317.61
632.00	363.76
633.00	419.44
634.00	515.54
635.00	621.54
636.00	765.43
637.00	898.82
638.00	1074.39
639.00	1304.34
640.00	1572.77
641.00	1889.44
642.00	2187.26
643.00	2586.70
644.00	3171.02
645.00	4021.12
646.00	4095.35
647.00	4095.00
648.00	4095.00
649.00	4095.00
650.00	4095.00
651.00	4095.00
652.00	4095.00
653.00	4095.00
654.00	4095.00
655.00	4095.00
656.00	4095.00
657.00	4095.00
658.00	4095.00
659.00	4095.00
660.00	4095.00
661.00	4095.00
662.00	4095.00
663.00	4095.00
664.00	4095.00
665.00	4095.00
666.00	4095.00
667.00	4095.00
668.00	4095.00
669.00	4095.00
670.00	4095.00
671.00	4095.00
672.00	4095.00
673.00	4095.00
674.00	4095.00
675.00	4095.00
676.00	4094.99
677.00	4095.28
678.00	4080.69
679.00	3470.37
680.00	3249.99
681.00	2973.18
682.00	2610.99
683.00	2207.10
684.00	1832.08
685.00	1486.85
686.00	1209.55
687.00	1019.27
688.00	920.01
689.00	828.81
690.00	723.74
691.00	673.76
692.00	579.37
693.00	509.11
694.00	490.86
695.00	466.60
696.00	401.14
697.00	370.15
698.00	361.94
699.00	380.28
700.00	319.77
701.00	318.10
702.00	346.75
703.00	319.12
704.00	234.85
705.00	206.43
706.00	193.76
707.00	202.85
708.00	200.88
709.00	195.73
710.00	182.26
711.00	182.68
712.00	180.91
713.00	177.10
714.00	178.13
715.00	171.66
716.00	172.40
717.00	177.60
718.00	181.23
719.00	172.93
720.00	177.02
721.00	181.06
722.00	179.13
723.00	180.82
724.00	174.96
725.00	175.90
726.00	173.19
727.00	170.98
728.00	172.92
729.00	167.98
730.00	173.59
731.00	166.01
732.00	166.93
733.00	173.90
734.00	157.72
735.00	161.43
736.00	170.03
737.00	169.20
738.00	153.30
739.00	168.05
740.00	159.15
741.00	164.07
742.00	159.12
743.00	161.91
744.00	164.01
745.00	163.49
746.00	168.22
747.00	160.66
748.00	161.50
749.00	169.08
750.00	164.26
751.00	165.72
752.00	164.48
753.00	166.06
754.00	164.69
755.00	166.22
756.00	168.39
757.00	163.25
758.00	163.90
759.00	162.26
760.00	164.25
761.00	161.49
762.00	162.48
763.00	163.63
764.00	161.99
765.00	170.63
766.00	164.83
767.00	175.27
768.00	178.73
769.00	168.29
770.00	168.63
771.00	178.07
772.00	181.88
773.00	186.78
774.00	186.33
775.00	195.34
776.00	194.28
777.00	202.77
778.00	212.05
779.00	206.86
780.00	234.11
781.00	302.30
782.00	348.71
783.00	339.64
784.00	308.19
785.00	317.68
786.00	353.28
787.00	386.50
788.00	488.53
789.00	717.97
790.00	1177.38
791.00	1687.91
792.00	1901.54
793.00	1575.10
794.00	1228.73
795.00	1248.78
796.00	1837.61
797.00	2665.27
798.00	2689.01
799.00	2911.09
800.00	2483.53
801.00	2111.68
802.00	2104.02
803.00	1679.55
804.00	1443.56
805.00	1189.28
806.00	973.74
807.00	930.98
808.00	1289.42
809.00	1724.23
810.00	2048.61
811.00	2037.40
812.00	1921.59
813.00	1809.39
814.00	1689.46
815.00	1561.32
816.00	1525.39
817.00	1753.66
818.00	2041.71
819.00	2096.99
820.00	1978.05
821.00	1759.41
822.00	1463.50
823.00	1199.96
824.00	1039.56
825.00	1028.51
826.00	1037.80
827.00	1115.83
828.00	1340.19
829.00	1730.02
830.00	2411.62
831.00	3032.91
832.00	3574.54
833.00	3397.73
834.00	2610.49
835.00	1841.86
836.00	1501.58
837.00	1596.69
838.00	1172.39
839.00	1104.50
840.00	1446.47
841.00	1217.30
842.00	813.02
843.00	824.24
844.00	861.46
845.00	625.02
846.00	534.13
847.00	596.43
848.00	825.81
849.00	1220.60
850.00	2652.13
851.00	2639.92
852.00	1744.35
853.00	1825.85
854.00	2209.99
855.00	1364.40
856.00	837.38
857.00	535.30
858.00	376.38
859.00	313.70
860.00	272.55
861.00	266.21
862.00	250.56
863.00	252.55
864.00	220.58
865.00	201.89
866.00	196.78
867.00	187.02
868.00	184.88
869.00	179.57
870.00	179.60
871.00	172.93
872.00	173.31
873.00	165.77
874.00	174.44
875.00	161.41
876.00	166.19
877.00	165.72
878.00	152.13
879.00	156.26
880.00	162.29
881.00	162.31
882.00	153.50
883.00	154.18
884.00	155.04
885.00	156.72
886.00	150.61
887.00	150.20
888.00	156.05
889.00	145.67
890.00	153.90
891.00	148.93
892.00	150.08
893.00	159.01
894.00	147.05
895.00	150.26
896.00	144.13
897.00	150.23
898.00	148.65
899.00	151.81
900.00	153.24
901.00	154.26
902.00	152.28
903.00	147.01
904.00	152.42
905.00	156.83
906.00	155.97
907.00	158.50
908.00	161.05
909.00	159.16
910.00	158.68
911.00	164.98
912.00	167.93
913.00	168.73
914.00	162.80
915.00	169.24
916.00	167.01
917.00	171.24
918.00	174.26
919.00	174.25
920.00	185.87
921.00	184.31
922.00	197.08
923.00	205.40
924.00	219.85
925.00	219.24
926.00	236.23
927.00	233.37
928.00	250.88
929.00	272.15
930.00	274.10
931.00	289.43
932.00	326.78
933.00	347.86
934.00	360.52
935.00	382.50
936.00	428.32
937.00	459.85
938.00	534.55
939.00	586.54
940.00	671.46
941.00	759.65
942.00	803.02
943.00	874.65
944.00	935.61
945.00	972.79
946.00	982.60
947.00	1000.32
948.00	1004.75
949.00	1003.45
950.00	1025.06
951.00	1066.62
952.00	1125.59
953.00	1200.06
954.00	1300.41
955.00	1422.03
956.00	1582.09
957.00	1786.82
958.00	1930.74
959.00	2140.90
960.00	2402.00
961.00	2589.43
962.00	2875.29
963.00	3191.19
964.00	3649.07
965.00	4073.38
966.00	4095.05
967.00	4095.00
968.00	4095.00
969.00	4095.00
970.00	4095.00
971.00	4095.00
972.00	4095.00
973.00	4095.00
974.00	4095.00
975.00	4095.00
976.00	4095.00
977.00	4095.00
978.00	4095.00
979.00	4095.00
980.00	4095.00
981.00	4095.00
982.00	4095.00
983.00	4095.00
984.00	4095.00
985.00	4095.00
986.00	4095.00
987.00	4094.95
988.00	4093.74
989.00	3532.49
990.00	3274.24
991.00	3169.24
992.00	3186.42
993.00	3250.08
994.00	3517.66
995.00	3955.34
996.00	4095.14
997.00	4094.99
998.00	4095.00
999.00	4095.00
1000.00	4095.00
